thisRow.t,notes,trial_no,onset_time,words,condition_name,valence,judgement,accurate_onsetTime,reaction_time,rt,responses,answer,setting,words_file,subID,sessionID,runID,
,,1,0.0,self-conscious,UPPERCASE,2,UPPER,0.02800550000392832,1.170101791009074,1.1420962910051458,r,no,SCANNER,wordlist_run2.csv,0,Repeat_Baseline,2,
,,2,4.8,self-satisfied,UPPERCASE,2,UPPER,4.813280458009103,5.664224333013408,0.8509438750043046,r,no,SCANNER,wordlist_run2.csv,0,Repeat_Baseline,2,
,,3,9.6,friendly,SELF,1,SELF,9.61587354101357,10.708388500002911,1.0925149589893408,g,yes,SCANNER,wordlist_run2.csv,0,Repeat_Baseline,2,
,,4,11.7,lifeless,SELF,3,SELF,11.703960583021399,13.157652624999173,1.4536920419777744,g,yes,SCANNER,wordlist_run2.csv,0,Repeat_Baseline,2,
,,5,14.0,thoughtless,OBAMA,3,OBAMA,14.003842166013783,15.55273558301269,1.548893416998908,g,yes,SCANNER,wordlist_run2.csv,0,Repeat_Baseline,2,
,,6,16.8,self-concerned,UPPERCASE,2,UPPER,16.80418620799901,17.926410333020613,1.122224125021603,r,no,SCANNER,wordlist_run2.csv,0,Repeat_Baseline,2,
,,7,22.6,ambitious,OBAMA,1,OBAMA,22.61677570801112,23.912243083002977,1.2954673749918584,g,yes,SCANNER,wordlist_run2.csv,0,Repeat_Baseline,2,
,,8,26.0,consistent,SELF,1,SELF,26.01294533300097,26.776799083017977,0.763853750017006,g,yes,SCANNER,wordlist_run2.csv,0,Repeat_Baseline,2,
,,9,28.1,reckless,UPPERCASE,3,UPPER,28.112470375024714,29.003599500021664,0.8911291249969508,r,no,SCANNER,wordlist_run2.csv,0,Repeat_Baseline,2,
,,10,33.9,crafty,UPPERCASE,2,UPPER,33.919377833022736,34.864430833025835,0.9450530000030994,r,no,SCANNER,wordlist_run2.csv,0,Repeat_Baseline,2,
,,11,40.6,self-sufficient,UPPERCASE,1,LOWER,40.617858208017424,41.52323229101603,0.9053740829986054,g,yes,SCANNER,wordlist_run2.csv,0,Repeat_Baseline,2,
,,12,42.7,excited,UPPERCASE,2,LOWER,42.71186191600282,43.56638370800647,0.8545217920036521,r,no,SCANNER,wordlist_run2.csv,0,Repeat_Baseline,2,
,,13,45.1,neurotic,SELF,3,SELF,45.11168554102187,46.63465845800238,1.5229729169805069,g,yes,SCANNER,wordlist_run2.csv,0,Repeat_Baseline,2,
,,14,48.8,brilliant,SELF,1,SELF,48.81250529101817,50.331138250010554,1.5186329589923844,r,no,SCANNER,wordlist_run2.csv,0,Repeat_Baseline,2,
,,15,50.8,fault-finding,OBAMA,3,OBAMA,50.8045581660117,52.11505137500353,1.3104932089918293,g,yes,SCANNER,wordlist_run2.csv,0,Repeat_Baseline,2,
,,16,57.0,modest,UPPERCASE,1,UPPER,57.01839937502518,57.983152375003556,0.9647529999783728,r,no,SCANNER,wordlist_run2.csv,0,Repeat_Baseline,2,
,,17,60.4,dominating,SELF,3,SELF,60.4176483330084,61.65303737501381,1.2353890420054086,g,yes,SCANNER,wordlist_run2.csv,0,Repeat_Baseline,2,
,,18,65.3,anxious,OBAMA,2,OBAMA,65.3135394580022,66.9530752080027,1.6395357500005048,g,yes,SCANNER,wordlist_run2.csv,0,Repeat_Baseline,2,
,,19,71.6,daydreamer,SELF,2,SELF,71.61308408301556,72.58489029100747,0.9718062079919036,g,yes,SCANNER,wordlist_run2.csv,0,Repeat_Baseline,2,
,,20,77.2,self-disciplined,OBAMA,1,OBAMA,77.21633049999946,78.71966520801652,1.5033347080170643,r,no,SCANNER,wordlist_run2.csv,0,Repeat_Baseline,2,
,,21,82.4,choosy,SELF,2,SELF,82.41431229101727,84.10734950000187,1.693037208984606,g,yes,SCANNER,wordlist_run2.csv,0,Repeat_Baseline,2,
,,22,87.6,vigorous,SELF,1,SELF,87.61588191601913,88.69144025002606,1.075558334006928,g,yes,SCANNER,wordlist_run2.csv,0,Repeat_Baseline,2,
,,23,89.8,finicky,UPPERCASE,3,UPPER,89.80423016601708,90.77518404100556,0.9709538749884814,r,no,SCANNER,wordlist_run2.csv,0,Repeat_Baseline,2,
,,24,91.8,understanding,SELF,1,SELF,91.80384479102213,93.20215254102368,1.3983077500015497,r,no,SCANNER,wordlist_run2.csv,0,Repeat_Baseline,2,
,,25,98.0,sincere,OBAMA,1,OBAMA,98.01725662502577,99.50606970800436,1.488813082978595,r,no,SCANNER,wordlist_run2.csv,0,Repeat_Baseline,2,
,,26,104.5,nonconforming,SELF,3,SELF,104.51613958302187,105.9061034580227,1.3899638750008307,g,yes,SCANNER,wordlist_run2.csv,0,Repeat_Baseline,2,
,,27,106.6,greedy,SELF,3,SELF,106.60239229100989,107.94019216601737,1.3377998750074767,g,yes,SCANNER,wordlist_run2.csv,0,Repeat_Baseline,2,
,,28,108.6,imaginative,SELF,2,SELF,108.60380583300139,109.78955870799837,1.1857528749969788,r,no,SCANNER,wordlist_run2.csv,0,Repeat_Baseline,2,
,,29,114.5,tidy,UPPERCASE,1,UPPER,114.51841795802466,115.4050067080243,0.8865887499996461,r,no,SCANNER,wordlist_run2.csv,0,Repeat_Baseline,2,
,,30,117.9,precise,OBAMA,1,OBAMA,117.91434341602144,119.33838287502294,1.4240394590015057,r,no,SCANNER,wordlist_run2.csv,0,Repeat_Baseline,2,
,,31,119.9,studious,OBAMA,1,OBAMA,119.90438241601805,121.15551362500992,1.2511312089918647,g,yes,SCANNER,wordlist_run2.csv,0,Repeat_Baseline,2,
,,32,121.9,energetic,OBAMA,2,OBAMA,121.90466670802562,123.51874629102531,1.6140795829996932,r,no,SCANNER,wordlist_run2.csv,0,Repeat_Baseline,2,
,,33,128.0,inattentive,SELF,3,SELF,128.01270733302226,129.42952654100372,1.4168192079814617,g,yes,SCANNER,wordlist_run2.csv,0,Repeat_Baseline,2,
,,34,133.0,pleasant,SELF,1,SELF,133.01685091599938,134.51136879101978,1.4945178750203922,r,no,SCANNER,wordlist_run2.csv,0,Repeat_Baseline,2,
,,35,135.8,dull,SELF,3,SELF,135.8111507910071,136.94221675000153,1.1310659589944407,g,yes,SCANNER,wordlist_run2.csv,0,Repeat_Baseline,2,
,,36,140.2,cynical,UPPERCASE,3,LOWER,140.21320375002688,141.325602833007,1.1123990829801187,g,yes,SCANNER,wordlist_run2.csv,0,Repeat_Baseline,2,
,,37,142.3,skilled,OBAMA,1,OBAMA,142.3038843329996,143.60103616601555,1.2971518330159597,r,no,SCANNER,wordlist_run2.csv,0,Repeat_Baseline,2,
,,38,146.3,illogical,UPPERCASE,3,LOWER,146.31260175001808,147.43275245800032,1.1201507079822477,g,yes,SCANNER,wordlist_run2.csv,0,Repeat_Baseline,2,
,,39,149.9,patient,UPPERCASE,1,LOWER,149.91285704102484,151.68731704101083,1.774459999985993,g,yes,SCANNER,wordlist_run2.csv,0,Repeat_Baseline,2,
,,40,154.0,generous,OBAMA,1,OBAMA,154.013500666013,155.3131024580216,1.299601792008616,r,no,SCANNER,wordlist_run2.csv,0,Repeat_Baseline,2,
,,41,157.9,old-fashioned,SELF,2,SELF,157.91172162501607,159.33483891602373,1.4231172910076566,g,yes,SCANNER,wordlist_run2.csv,0,Repeat_Baseline,2,
,,42,162.2,touchy,OBAMA,3,OBAMA,162.21379837501445,163.48971191601595,1.2759135410015006,g,yes,SCANNER,wordlist_run2.csv,0,Repeat_Baseline,2,
,,43,167.1,clumsy,OBAMA,2,OBAMA,167.11562512500677,168.17742137500318,1.061796249996405,g,yes,SCANNER,wordlist_run2.csv,0,Repeat_Baseline,2,
,,44,169.2,resourceful,UPPERCASE,1,UPPER,169.2056682910188,170.01915479102172,0.8134865000029095,r,no,SCANNER,wordlist_run2.csv,0,Repeat_Baseline,2,
,,45,174.5,unfair,UPPERCASE,3,UPPER,174.51625329101807,175.25550691600074,0.7392536249826662,r,no,SCANNER,wordlist_run2.csv,0,Repeat_Baseline,2,
,,46,178.5,inaccurate,OBAMA,3,OBAMA,178.51488800000516,179.87859120802023,1.3637032080150675,g,yes,SCANNER,wordlist_run2.csv,0,Repeat_Baseline,2,
,,47,183.4,amusing,SELF,1,SELF,183.4161462910124,184.24605187500129,0.8299055839888752,r,no,SCANNER,wordlist_run2.csv,0,Repeat_Baseline,2,
,,48,189.6,skillful,OBAMA,1,OBAMA,189.61694220799836,190.29555762500968,0.678615417011315,g,yes,SCANNER,wordlist_run2.csv,0,Repeat_Baseline,2,
,,49,191.9,possessive,UPPERCASE,3,LOWER,191.9117604159983,193.7649775830214,1.8532171670231037,r,no,SCANNER,wordlist_run2.csv,0,Repeat_Baseline,2,
,,50,193.9,frivolous,UPPERCASE,2,LOWER,193.90318479100824,195.0029990830226,1.0998142920143437,g,yes,SCANNER,wordlist_run2.csv,0,Repeat_Baseline,2,
,,51,197.4,critical,OBAMA,2,OBAMA,197.41377116600052,198.9377563750022,1.5239852090016939,r,no,SCANNER,wordlist_run2.csv,0,Repeat_Baseline,2,
,,52,200.6,skeptical,OBAMA,2,OBAMA,200.61302262500976,202.1835492500104,1.5705266250006389,g,yes,SCANNER,wordlist_run2.csv,0,Repeat_Baseline,2,
,,53,203.2,vain,OBAMA,3,OBAMA,203.2048377500032,204.45403891601018,1.2492011660069693,g,yes,SCANNER,wordlist_run2.csv,0,Repeat_Baseline,2,
,,54,209.8,dependent,OBAMA,2,OBAMA,209.8141467079986,211.164792125026,1.3506454170274083,r,no,SCANNER,wordlist_run2.csv,0,Repeat_Baseline,2,
,,55,215.2,aimless,UPPERCASE,3,LOWER,215.21468433301197,216.185499291023,0.970814958011033,g,yes,SCANNER,wordlist_run2.csv,0,Repeat_Baseline,2,
,,56,221.6,well-mannered,SELF,1,SELF,221.6166760410124,223.04998383301427,1.4333077920018695,r,no,SCANNER,wordlist_run2.csv,0,Repeat_Baseline,2,
,,57,223.6,vulgar,OBAMA,3,OBAMA,223.60614333301783,225.2091935830249,1.6030502500070725,g,yes,SCANNER,wordlist_run2.csv,0,Repeat_Baseline,2,
,,58,225.7,methodical,SELF,2,SELF,225.70357612500084,227.0240072500019,1.3204311250010505,r,no,SCANNER,wordlist_run2.csv,0,Repeat_Baseline,2,
,,59,227.9,high-spirited,SELF,1,SELF,227.90360966601293,229.27726754100877,1.3736578749958426,r,no,SCANNER,wordlist_run2.csv,0,Repeat_Baseline,2,
,,60,231.7,optimistic,SELF,1,SELF,231.71286216602311,232.98802458299906,1.2751624169759452,r,no,SCANNER,wordlist_run2.csv,0,Repeat_Baseline,2,
,,61,236.8,tolerant,UPPERCASE,1,LOWER,236.81517900002655,238.78098391601816,1.9658049159916118,r,no,SCANNER,wordlist_run2.csv,0,Repeat_Baseline,2,
,,62,241.9,bright,SELF,1,SELF,241.9122431249998,243.09585512502235,1.1836120000225492,r,no,SCANNER,wordlist_run2.csv,0,Repeat_Baseline,2,
,,63,247.0,practical,SELF,1,SELF,247.01354895799886,248.17609516601078,1.1625462080119178,r,no,SCANNER,wordlist_run2.csv,0,Repeat_Baseline,2,
,,64,252.1,unromantic,UPPERCASE,2,LOWER,252.11358095801552,253.931612083019,1.818031125003472,g,yes,SCANNER,wordlist_run2.csv,0,Repeat_Baseline,2,
,,65,257.1,hot-tempered,UPPERCASE,3,UPPER,257.11334379101754,257.8734127909993,0.7600689999817405,r,no,SCANNER,wordlist_run2.csv,0,Repeat_Baseline,2,
,,66,263.1,unpoised,UPPERCASE,2,UPPER,263.11305787501624,264.02124212501803,0.9081842500017956,r,no,SCANNER,wordlist_run2.csv,0,Repeat_Baseline,2,
,,67,269.2,sensitive,UPPERCASE,2,UPPER,269.21711287501967,269.9161349160131,0.6990220409934409,r,no,SCANNER,wordlist_run2.csv,0,Repeat_Baseline,2,
,,68,274.7,temperamental,OBAMA,2,OBAMA,274.7173238750256,276.24209837501985,1.524774499994237,g,yes,SCANNER,wordlist_run2.csv,0,Repeat_Baseline,2,
,,69,276.7,inefficient,SELF,3,SELF,276.7055963750172,278.17484716602485,1.4692507910076529,g,yes,SCANNER,wordlist_run2.csv,0,Repeat_Baseline,2,
,,70,279.4,appreciative,OBAMA,2,OBAMA,279.40277320801397,281.15583904102095,1.7530658330069855,r,no,SCANNER,wordlist_run2.csv,0,Repeat_Baseline,2,
,,71,282.1,sociable,UPPERCASE,1,LOWER,282.104339625017,284.0139429580013,1.9096033329842612,r,no,SCANNER,wordlist_run2.csv,0,Repeat_Baseline,2,
,,72,286.5,calm,UPPERCASE,1,LOWER,286.5164598750125,287.6887858330156,1.1723259580030572,g,yes,SCANNER,wordlist_run2.csv,0,Repeat_Baseline,2,
,,73,290.6,able,OBAMA,1,OBAMA,290.616443625011,291.9288473330089,1.3124037079978734,g,yes,SCANNER,wordlist_run2.csv,0,Repeat_Baseline,2,
,,74,295.8,perceptive,UPPERCASE,1,LOWER,295.81778979100636,296.4416152500198,0.6238254590134602,g,yes,SCANNER,wordlist_run2.csv,0,Repeat_Baseline,2,
,,75,301.8,self-assured,SELF,1,SELF,301.8167441250116,302.3047359160264,0.4879917910147924,g,yes,SCANNER,wordlist_run2.csv,0,Repeat_Baseline,2,
,,76,304.9,self-centered,SELF,3,SELF,304.91416791602387,305.4437867910019,0.5296188749780413,r,no,SCANNER,wordlist_run2.csv,0,Repeat_Baseline,2,
,,77,310.9,intellectual,UPPERCASE,2,LOWER,310.9166691249993,311.58924145801575,0.6725723330164328,r,no,SCANNER,wordlist_run2.csv,0,Repeat_Baseline,2,
,,78,313.6,unpopular,UPPERCASE,2,LOWER,313.6157244160131,314.16104612502386,0.54532170901075,g,yes,SCANNER,wordlist_run2.csv,0,Repeat_Baseline,2,
,,79,317.2,tender,SELF,1,SELF,317.2167860410118,317.7243090830161,0.5075230420043226,g,yes,SCANNER,wordlist_run2.csv,0,Repeat_Baseline,2,
,,80,320.3,definite,OBAMA,2,OBAMA,320.3133947500028,320.8808462500165,0.5674515000137035,g,yes,SCANNER,wordlist_run2.csv,0,Repeat_Baseline,2,
,,81,322.8,respectable,OBAMA,1,OBAMA,322.8134530830139,323.2623345000029,0.44888141698902473,r,no,SCANNER,wordlist_run2.csv,0,Repeat_Baseline,2,
,,82,329.0,frustrated,SELF,3,SELF,329.01693116599927,329.62010891601676,0.603177750017494,g,yes,SCANNER,wordlist_run2.csv,0,Repeat_Baseline,2,
,,83,333.3,unattentive,UPPERCASE,3,LOWER,333.3134475830011,334.4229766250064,1.109529042005306,g,yes,SCANNER,wordlist_run2.csv,0,Repeat_Baseline,2,
,,84,338.4,poised,OBAMA,1,OBAMA,338.41498770800536,339.46765458301525,1.0526668750098906,g,yes,SCANNER,wordlist_run2.csv,0,Repeat_Baseline,2,
,,85,340.4,mature,UPPERCASE,1,LOWER,340.4043465410068,340.92425204100437,0.5199054999975488,g,yes,SCANNER,wordlist_run2.csv,0,Repeat_Baseline,2,
,,86,343.1,courageous,OBAMA,1,OBAMA,343.11441487501725,344.0552930830163,0.9408782079990488,g,yes,SCANNER,wordlist_run2.csv,0,Repeat_Baseline,2,
,,87,347.0,boastful,UPPERCASE,3,UPPER,347.0142678330012,347.6815354160208,0.6672675830195658,r,no,SCANNER,wordlist_run2.csv,0,Repeat_Baseline,2,
,,88,351.5,frank,SELF,1,SELF,351.51690866600256,352.6446120830078,1.1277034170052502,g,yes,SCANNER,wordlist_run2.csv,0,Repeat_Baseline,2,
,,89,353.9,convincing,SELF,2,SELF,353.9135700830084,354.9930700000259,1.0794999170175288,g,yes,SCANNER,wordlist_run2.csv,0,Repeat_Baseline,2,
,,90,358.8,kind-hearted,OBAMA,1,OBAMA,358.8153675000067,359.9351336250256,1.1197661250189412,r,no,SCANNER,wordlist_run2.csv,0,Repeat_Baseline,2,
,,91,363.7,impulsive,OBAMA,2,OBAMA,363.7165576250118,364.26390758302296,0.547349958011182,r,no,SCANNER,wordlist_run2.csv,0,Repeat_Baseline,2,
,,92,370.0,envious,SELF,3,SELF,370.0140576250269,370.8510583330062,0.837000707979314,r,no,SCANNER,wordlist_run2.csv,0,Repeat_Baseline,2,
,,93,372.6,silly,SELF,2,SELF,372.6126677910215,373.5088484160078,0.8961806249863002,g,yes,SCANNER,wordlist_run2.csv,0,Repeat_Baseline,2,
,,94,377.7,quarrelsome,OBAMA,3,OBAMA,377.71731062501203,378.89585283302586,1.1785422080138233,g,yes,SCANNER,wordlist_run2.csv,0,Repeat_Baseline,2,
,,95,383.8,preoccupied,SELF,2,SELF,383.81869304101565,384.7415841660113,0.9228911249956582,g,yes,SCANNER,wordlist_run2.csv,0,Repeat_Baseline,2,
,,96,389.6,jumpy,SELF,3,SELF,389.61693025002023,390.5855351659993,0.9686049159790855,g,yes,SCANNER,wordlist_run2.csv,0,Repeat_Baseline,2,
,,97,392.9,suspicious,SELF,3,SELF,392.9129118749988,394.1912088750105,1.278297000011662,r,no,SCANNER,wordlist_run2.csv,0,Repeat_Baseline,2,
,,98,395.0,conceited,SELF,3,SELF,395.00513183302246,396.28425812500063,1.279126291978173,g,yes,SCANNER,wordlist_run2.csv,0,Repeat_Baseline,2,
,,99,398.9,tactless,OBAMA,3,OBAMA,398.9128569580207,399.8974411250092,0.9845841669884976,g,yes,SCANNER,wordlist_run2.csv,0,Repeat_Baseline,2,
,,100,403.6,inconsistent,OBAMA,3,OBAMA,403.6172288329981,404.4012116250233,0.7839827920251992,g,yes,SCANNER,wordlist_run2.csv,0,Repeat_Baseline,2,
,,101,410.0,satirical,UPPERCASE,3,UPPER,410.01464058301644,411.7030730410188,1.688432458002353,g,yes,SCANNER,wordlist_run2.csv,0,Repeat_Baseline,2,
,,102,412.9,complaining,OBAMA,3,OBAMA,412.90465687500546,413.6271939580038,0.7225370829983149,g,yes,SCANNER,wordlist_run2.csv,0,Repeat_Baseline,2,
,,103,416.8,narrow-minded,OBAMA,3,OBAMA,416.8136388330022,417.8655093330017,1.0518704999994952,g,yes,SCANNER,wordlist_run2.csv,0,Repeat_Baseline,2,
,,104,419.2,depressed,OBAMA,3,OBAMA,419.2121832080011,420.34972783300327,1.1375446250021923,g,yes,SCANNER,wordlist_run2.csv,0,Repeat_Baseline,2,
,,105,423.8,cold,UPPERCASE,3,UPPER,423.816351416026,425.1143350409984,1.297983624972403,r,no,SCANNER,wordlist_run2.csv,0,Repeat_Baseline,2,
,,106,429.3,kind,UPPERCASE,1,UPPER,429.31286241600174,430.01065579100396,0.6977933750022203,r,no,SCANNER,wordlist_run2.csv,0,Repeat_Baseline,2,
,,107,431.3,sloppy,UPPERCASE,3,UPPER,431.3121838750085,432.6032822499983,1.291098374989815,g,yes,SCANNER,wordlist_run2.csv,0,Repeat_Baseline,2,
,,108,434.0,unproductive,UPPERCASE,3,LOWER,434.0125320000225,435.32132941600867,1.3087974159861915,g,yes,SCANNER,wordlist_run2.csv,0,Repeat_Baseline,2,
,,109,436.3,forgetful,UPPERCASE,2,LOWER,436.3048665410024,437.25338304101024,0.9485165000078268,r,no,SCANNER,wordlist_run2.csv,0,Repeat_Baseline,2,
,,110,438.3,progressive,UPPERCASE,1,UPPER,438.30498725001235,439.2790185000049,0.9740312499925494,g,yes,SCANNER,wordlist_run2.csv,0,Repeat_Baseline,2,
,,111,440.6,likable,SELF,1,SELF,440.6123601660074,441.3253928750055,0.713032708998071,r,no,SCANNER,wordlist_run2.csv,0,Repeat_Baseline,2,
,,112,445.3,conscientious,UPPERCASE,2,LOWER,445.3187211250188,446.1724540000141,0.8537328749953303,g,yes,SCANNER,wordlist_run2.csv,0,Repeat_Baseline,2,
,,113,448.2,unethical,OBAMA,3,OBAMA,448.21546662499895,449.06325833301526,0.8477917080163024,g,yes,SCANNER,wordlist_run2.csv,0,Repeat_Baseline,2,
,,114,450.5,troubled,UPPERCASE,2,UPPER,450.51562612500857,451.23719579100725,0.7215696659986861,r,no,SCANNER,wordlist_run2.csv,0,Repeat_Baseline,2,
,,115,456.6,meditative,SELF,2,SELF,456.6145705410163,457.43494529102463,0.8203747500083409,g,yes,SCANNER,wordlist_run2.csv,0,Repeat_Baseline,2,
,,116,459.3,forceful,SELF,2,SELF,459.31336108301184,460.127903665998,0.8145425829861779,g,yes,SCANNER,wordlist_run2.csv,0,Repeat_Baseline,2,
,,117,463.1,bold,UPPERCASE,2,UPPER,463.11505891600973,464.09352866600966,0.9784697499999311,r,no,SCANNER,wordlist_run2.csv,0,Repeat_Baseline,2,
,,118,469.1,warm-hearted,OBAMA,1,OBAMA,469.11578570801066,470.23569775000215,1.1199120419914834,r,no,SCANNER,wordlist_run2.csv,0,Repeat_Baseline,2,
,,119,473.0,demanding,OBAMA,2,OBAMA,473.0131138750003,474.39887512501446,1.385761250014184,g,yes,SCANNER,wordlist_run2.csv,0,Repeat_Baseline,2,
,,120,478.9,sentimental,OBAMA,3,OBAMA,478.91622450001887,479.8395685830037,0.9233440829848405,g,yes,SCANNER,wordlist_run2.csv,0,Repeat_Baseline,2,
,,121,481.1,good-natured,OBAMA,1,OBAMA,481.11232591600856,482.4005082080257,1.2881822920171544,r,no,SCANNER,wordlist_run2.csv,0,Repeat_Baseline,2,
,,122,483.2,reserved,OBAMA,2,OBAMA,483.2059860830195,484.4872964580136,1.2813103749940637,r,no,SCANNER,wordlist_run2.csv,0,Repeat_Baseline,2,
,,123,486.4,submissive,SELF,2,SELF,486.41255812501186,487.10633183302707,0.6937737080152147,g,yes,SCANNER,wordlist_run2.csv,0,Repeat_Baseline,2,
,,124,489.7,good-humored,OBAMA,1,OBAMA,489.71611333300825,490.4105990000244,0.6944856670161244,g,yes,SCANNER,wordlist_run2.csv,0,Repeat_Baseline,2,
,,125,495.1,sensible,UPPERCASE,1,UPPER,495.1167896660045,495.8165484580095,0.6997587920050137,r,no,SCANNER,wordlist_run2.csv,0,Repeat_Baseline,2,
,,126,498.5,timid,OBAMA,2,OBAMA,498.51503333300934,499.1327442500042,0.617710916994838,g,yes,SCANNER,wordlist_run2.csv,0,Repeat_Baseline,2,
,,127,501.7,naive,SELF,2,SELF,501.7122950000048,502.729923958017,1.0176289580122102,g,yes,SCANNER,wordlist_run2.csv,0,Repeat_Baseline,2,
,,128,505.9,antisocial,UPPERCASE,3,LOWER,505.9137556250207,506.8121989160136,0.8984432909928728,g,yes,SCANNER,wordlist_run2.csv,0,Repeat_Baseline,2,
,,129,511.2,well-spoken,UPPERCASE,1,LOWER,511.21405358301126,512.0314280410239,0.8173744580126368,g,yes,SCANNER,wordlist_run2.csv,0,Repeat_Baseline,2,
,,130,513.2,normal,OBAMA,2,OBAMA,513.2037319160008,514.2919598330045,1.0882279170036782,g,yes,SCANNER,wordlist_run2.csv,0,Repeat_Baseline,2,
,,131,515.6,impolite,OBAMA,3,OBAMA,515.6126570000197,516.6916722910246,1.0790152910049073,g,yes,SCANNER,wordlist_run2.csv,0,Repeat_Baseline,2,
,,132,519.7,mediocre,OBAMA,2,OBAMA,519.7132645000238,520.6187935000053,0.9055289999814704,g,yes,SCANNER,wordlist_run2.csv,0,Repeat_Baseline,2,
,,133,522.8,gossipy,OBAMA,3,OBAMA,522.8115497080144,523.6823038750154,0.870754167000996,g,yes,SCANNER,wordlist_run2.csv,0,Repeat_Baseline,2,
,,134,526.3,passive,UPPERCASE,2,UPPER,526.3130590410146,526.9704653750232,0.6574063340085559,r,no,SCANNER,wordlist_run2.csv,0,Repeat_Baseline,2,
,,135,531.7,pessimistic,SELF,3,SELF,531.7182159580116,532.3334767080087,0.6152607499971054,g,yes,SCANNER,wordlist_run2.csv,0,Repeat_Baseline,2,
,,136,536.2,messy,SELF,3,SELF,536.2134697500151,536.7837065000203,0.5702367500052787,r,no,SCANNER,wordlist_run2.csv,0,Repeat_Baseline,2,
,,137,542.7,troublesome,UPPERCASE,3,LOWER,542.7179966660042,543.3219215830031,0.6039249169989489,g,yes,SCANNER,wordlist_run2.csv,0,Repeat_Baseline,2,
,,138,546.5,cultured,SELF,1,SELF,546.517633875017,547.3321884580073,0.8145545829902403,r,no,SCANNER,wordlist_run2.csv,0,Repeat_Baseline,2,
,,139,552.0,unwise,SELF,3,SELF,552.0187805410242,552.6097871660022,0.5910066249780357,r,no,SCANNER,wordlist_run2.csv,0,Repeat_Baseline,2,
,,140,556.5,decent,UPPERCASE,1,UPPER,556.5158905410208,557.0342569580243,0.5183664170035627,r,no,SCANNER,wordlist_run2.csv,0,Repeat_Baseline,2,
,,141,562.7,suave,SELF,2,SELF,562.7172930000233,563.3014277080074,0.5841347079840489,r,no,SCANNER,wordlist_run2.csv,0,Repeat_Baseline,2,
,,142,567.9,unkindly,OBAMA,3,OBAMA,567.9164229160233,568.4877837910026,0.5713608749792911,g,yes,SCANNER,wordlist_run2.csv,0,Repeat_Baseline,2,
,,143,572.1,indifferent,SELF,2,SELF,572.1175064160198,572.7543087500089,0.6368023339891806,r,no,SCANNER,wordlist_run2.csv,0,Repeat_Baseline,2,
,,144,574.8,fearful,SELF,2,SELF,574.8118644580245,575.4319764579996,0.6201119999750517,r,no,SCANNER,wordlist_run2.csv,0,Repeat_Baseline,2,
,,145,577.6,meek,OBAMA,2,OBAMA,577.6149637080089,578.156820166012,0.5418564580031671,r,no,SCANNER,wordlist_run2.csv,0,Repeat_Baseline,2,
,,146,579.8,worrying,SELF,2,SELF,579.8128353750217,580.3792164160113,0.5663810409896541,r,no,SCANNER,wordlist_run2.csv,0,Repeat_Baseline,2,
,,147,585.2,abusive,UPPERCASE,3,LOWER,585.2158267080085,585.8402638330008,0.6244371249922551,r,no,SCANNER,wordlist_run2.csv,0,Repeat_Baseline,2,
,,148,590.6,sympathetic,UPPERCASE,1,LOWER,590.6147417910106,591.2670003329986,0.6522585419879761,r,no,SCANNER,wordlist_run2.csv,0,Repeat_Baseline,2,
,,149,593.9,agreeable,SELF,2,SELF,593.9173548330145,594.786806707998,0.869451874983497,r,no,SCANNER,wordlist_run2.csv,0,Repeat_Baseline,2,
,,150,596.1,excitable,OBAMA,2,OBAMA,596.1128124580137,596.8999670000048,0.7871545419911854,r,no,SCANNER,wordlist_run2.csv,0,Repeat_Baseline,2,
,,151,599.4,high-strung,UPPERCASE,2,LOWER,599.4174736660207,600.1527715000266,0.7352978340059053,r,no,SCANNER,wordlist_run2.csv,0,Repeat_Baseline,2,
,,152,604.3,thoughtful,OBAMA,1,OBAMA,604.3126778330188,604.813203208003,0.5005253749841359,r,no,SCANNER,wordlist_run2.csv,0,Repeat_Baseline,2,
,,153,608.0,artistic,UPPERCASE,1,UPPER,608.0131108330097,608.4182563330105,0.4051455000007991,r,no,SCANNER,wordlist_run2.csv,0,Repeat_Baseline,2,
